Folder: machine-outputs/battery-cells

File: battery_cell_cycler_data_corrected.csv
Time (s),Voltage (V),Current (A),Capacity (Ah)
0.0,3.0,1,0.000277778
24.0067,3.008,1,0.00694444
48.0133,3.016,1,0.0136111
72.02,3.02401,1,0.0202778
96.0267,3.03201,1,0.0269444
120.033,3.04001,1,0.0336111
144.04,3.04801,1,0.0402778
168.047,3.05602,1,0.0469444
192.053,3.06402,1,0.0536111
216.06,3.07202,1,0.0602778
240.067,3.08002,1,0.0669444
264.073,3.08802,1,0.0736111
288.08,3.09603,1,0.0802778
312.087,3.10403,1,0.0869444
336.093,3.11203,1,0.0936111
360.1,3.12003,1,0.100278
384.107,3.12804,1,0.106944
408.113,3.13604,1,0.113611
432.12,3.14404,1,0.120278
456.127,3.15204,1,0.126944
480.133,3.16004,1,0.133611
504.14,3.16805,1,0.140278
528.147,3.17605,1,0.146944
552.153,3.18405,1,0.153611
576.16,3.19205,1,0.160278
600.167,3.20006,1,0.166944
624.173,3.20806,1,0.173611
648.18,3.21606,1,0.180278
672.187,3.22406,1,0.186944
696.193,3.23206,1,0.193611
720.2,3.24007,1,0.200278
744.207,3.24807,1,0.206944
768.213,3.25607,1,0.213611
792.22,3.26407,1,0.220278
816.227,3.27208,1,0.226944
840.233,3.28008,1,0.233611
864.24,3.28808,1,0.240278
888.247,3.29608,1,0.246944
912.253,3.30408,1,0.253611
936.26,3.31209,1,0.260278
960.267,3.32009,1,0.266944
984.273,3.32809,1,0.273611
1008.28,3.33609,1,0.280278
1032.29,3.3441,1,0.286944
1056.29,3.3521,1,0.293611
1080.3,3.3601,1,0.300278
1104.31,3.3681,1,0.306944
1128.31,3.3761,1,0.313611
1152.32,3.38411,1,0.320278
1176.33,3.39211,1,0.326944
1200.33,3.40011,1,0.333611
1224.34,3.40811,1,0.340278
1248.35,3.41612,1,0.346944
1272.35,3.42412,1,0.353611
1296.36,3.43212,1,0.360278
1320.37,3.44012,1,0.366944
1344.37,3.44812,1,0.373611
1368.38,3.45613,1,0.380278
1392.39,3.46413,1,0.386944
1416.39,3.47213,1,0.393611
1440.4,3.48013,1,0.400278
1464.41,3.48814,1,0.406944
1488.41,3.49614,1,0.413611
1512.42,3.50414,1,0.420278
1536.43,3.51214,1,0.426944
1560.43,3.52014,1,0.433611
1584.44,3.52815,1,0.440278
1608.45,3.53615,1,0.446944
1632.45,3.54415,1,0.453611
1656.46,3.55215,1,0.460278
1680.47,3.56016,1,0.466944
1704.47,3.56816,1,0.473611
1728.48,3.57616,1,0.480278
1752.49,3.58416,1,0.486944
1776.49,3.59216,1,0.493611
1800.5,3.60017,1,0.500278
1824.51,3.60817,1,0.506944
1848.51,3.61617,1,0.513611
1872.52,3.62417,1,0.520278
1896.53,3.63218,1,0.526944
1920.53,3.64018,1,0.533611
1944.54,3.64818,1,0.540278
1968.55,3.65618,1,0.546944
1992.55,3.66418,1,0.553611
2016.56,3.67219,1,0.560278
2040.57,3.68019,1,0.566944
2064.57,3.68819,1,0.573611
2088.58,3.69619,1,0.580278
2112.59,3.7042,1,0.586944
2136.59,3.7122,1,0.593611
2160.6,3.7202,1,0.600278
2184.61,3.7282,1,0.606944
2208.61,3.7362,1,0.613611
2232.62,3.74421,1,0.620278
2256.63,3.75221,1,0.626944
2280.63,3.76021,1,0.633611
2304.64,3.76821,1,0.640278
2328.65,3.77622,1,0.646944
2352.65,3.78422,1,0.653611
2376.66,3.79222,1,0.660278
2400.67,3.80022,1,0.666944
2424.67,3.80822,1,0.673611
2448.68,3.81623,1,0.680278
2472.69,3.82423,1,0.686944
2496.69,3.83223,1,0.693611
2520.7,3.84023,1,0.700278
2544.71,3.84824,1,0.706944
2568.71,3.85624,1,0.713611
2592.72,3.86424,1,0.720278
2616.73,3.87224,1,0.726944
2640.73,3.88024,1,0.733611
2664.74,3.88825,1,0.740278
2688.75,3.89625,1,0.746944
2712.75,3.90425,1,0.753611
2736.76,3.91225,1,0.760278
2760.77,3.92026,1,0.766944
2784.77,3.92826,1,0.773611
2808.78,3.93626,1,0.780278
2832.79,3.94426,1,0.786944
2856.79,3.95226,1,0.793611
2880.8,3.96027,1,0.800278
2904.81,3.96827,1,0.806944
2928.81,3.97627,1,0.813611
2952.82,3.98427,1,0.820278
2976.83,3.99228,1,0.826944
3000.83,4.00028,1,0.833611
3024.84,4.00828,1,0.840278
3048.85,4.01628,1,0.846944
3072.85,4.02428,1,0.853611
3096.86,4.03229,1,0.860278
3120.87,4.04029,1,0.866944
3144.87,4.04829,1,0.873611
3168.88,4.05629,1,0.880278
3192.89,4.0643,1,0.886944
3216.89,4.0723,1,0.893611
3240.9,4.0803,1,0.900278
3264.91,4.0883,1,0.906944
3288.91,4.0963,1,0.913611
3312.92,4.10431,1,0.920278
3336.93,4.11231,1,0.926944
3360.93,4.12031,1,0.933611
3384.94,4.12831,1,0.940278
3408.95,4.13632,1,0.946944
3432.95,4.14432,1,0.953611
3456.96,4.15232,1,0.960278
3480.97,4.16032,1,0.966944
3504.97,4.16832,1,0.973611
3528.98,4.17633,1,0.980278
3552.99,4.18433,1,0.986944
3576.99,4.19233,1,0.993611
3601,4.19967,-1,0.999444
3625.01,4.19166,-1,0.992778
3649.01,4.18366,-1,0.986111
3673.02,4.17566,-1,0.979444
3697.03,4.16766,-1,0.972778
3721.03,4.15966,-1,0.966111
3745.04,4.15165,-1,0.959444
3769.05,4.14365,-1,0.952778
3793.05,4.13565,-1,0.946111
3817.06,4.12765,-1,0.939444
3841.07,4.11964,-1,0.932778
3865.07,4.11164,-1,0.926111
3889.08,4.10364,-1,0.919444
3913.09,4.09564,-1,0.912778
3937.09,4.08764,-1,0.906111
3961.1,4.07963,-1,0.899444
3985.11,4.07163,-1,0.892778
4009.11,4.06363,-1,0.886111
4033.12,4.05563,-1,0.879444
4057.13,4.04762,-1,0.872778
4081.13,4.03962,-1,0.866111
4105.14,4.03162,-1,0.859444
4129.15,4.02362,-1,0.852778
4153.15,4.01562,-1,0.846111
4177.16,4.00761,-1,0.839444
4201.17,3.99961,-1,0.832778
4225.17,3.99161,-1,0.826111
4249.18,3.98361,-1,0.819444
4273.19,3.9756,-1,0.812778
4297.19,3.9676,-1,0.806111
4321.2,3.9596,-1,0.799444
4345.21,3.9516,-1,0.792778
4369.21,3.9436,-1,0.786111
4393.22,3.93559,-1,0.779444
4417.23,3.92759,-1,0.772778
4441.23,3.91959,-1,0.766111
4465.24,3.91159,-1,0.759444
4489.25,3.90358,-1,0.752778
4513.25,3.89558,-1,0.746111
4537.26,3.88758,-1,0.739444
4561.27,3.87958,-1,0.732778
4585.27,3.87158,-1,0.726111
4609.28,3.86357,-1,0.719444
4633.29,3.85557,-1,0.712778
4657.29,3.84757,-1,0.706111
4681.3,3.83957,-1,0.699444
4705.31,3.83156,-1,0.692778
4729.31,3.82356,-1,0.686111
4753.32,3.81556,-1,0.679444
4777.33,3.80756,-1,0.672778
4801.33,3.79956,-1,0.666111
4825.34,3.79155,-1,0.659444
4849.35,3.78355,-1,0.652778
4873.35,3.77555,-1,0.646111
4897.36,3.76755,-1,0.639444
4921.37,3.75954,-1,0.632778
4945.37,3.75154,-1,0.626111
4969.38,3.74354,-1,0.619444
4993.39,3.73554,-1,0.612778
5017.39,3.72754,-1,0.606111
5041.4,3.71953,-1,0.599444
5065.41,3.71153,-1,0.592778
5089.41,3.70353,-1,0.586111
5113.42,3.69553,-1,0.579444
5137.43,3.68752,-1,0.572778
5161.43,3.67952,-1,0.566111
5185.44,3.67152,-1,0.559444
5209.45,3.66352,-1,0.552778
5233.45,3.65552,-1,0.546111
5257.46,3.64751,-1,0.539444
5281.47,3.63951,-1,0.532778
5305.47,3.63151,-1,0.526111
5329.48,3.62351,-1,0.519444
5353.49,3.6155,-1,0.512778
5377.49,3.6075,-1,0.506111
5401.5,3.5995,-1,0.499444
5425.51,3.5915,-1,0.492778
5449.51,3.5835,-1,0.486111
5473.52,3.57549,-1,0.479444
5497.53,3.56749,-1,0.472778
5521.53,3.55949,-1,0.466111
5545.54,3.55149,-1,0.459444
5569.55,3.54348,-1,0.452778
5593.55,3.53548,-1,0.446111
5617.56,3.52748,-1,0.439444
5641.57,3.51948,-1,0.432778
5665.57,3.51148,-1,0.426111
5689.58,3.50347,-1,0.419444
5713.59,3.49547,-1,0.412778
5737.59,3.48747,-1,0.406111
5761.6,3.47947,-1,0.399444
5785.61,3.47146,-1,0.392778
5809.61,3.46346,-1,0.386111
5833.62,3.45546,-1,0.379444
5857.63,3.44746,-1,0.372778
5881.63,3.43946,-1,0.366111
5905.64,3.43145,-1,0.359444
5929.65,3.42345,-1,0.352778
5953.65,3.41545,-1,0.346111
5977.66,3.40745,-1,0.339444
6001.67,3.39944,-1,0.332778
6025.67,3.39144,-1,0.326111
6049.68,3.38344,-1,0.319444
6073.69,3.37544,-1,0.312778
6097.69,3.36744,-1,0.306111
6121.7,3.35943,-1,0.299444
6145.71,3.35143,-1,0.292778
6169.71,3.34343,-1,0.286111
6193.72,3.33543,-1,0.279444
6217.73,3.32742,-1,0.272778
6241.73,3.31942,-1,0.266111
6265.74,3.31142,-1,0.259444
6289.75,3.30342,-1,0.252778
6313.75,3.29542,-1,0.246111
6337.76,3.28741,-1,0.239444
6361.77,3.27941,-1,0.232778
6385.77,3.27141,-1,0.226111
6409.78,3.26341,-1,0.219444
6433.79,3.2554,-1,0.212778
6457.79,3.2474,-1,0.206111
6481.8,3.2394,-1,0.199444
6505.81,3.2314,-1,0.192778
6529.81,3.2234,-1,0.186111
6553.82,3.21539,-1,0.179444
6577.83,3.20739,-1,0.172778
6601.83,3.19939,-1,0.166111
6625.84,3.19139,-1,0.159444
6649.85,3.18338,-1,0.152778
6673.85,3.17538,-1,0.146111
6697.86,3.16738,-1,0.139444
6721.87,3.15938,-1,0.132778
6745.87,3.15138,-1,0.126111
6769.88,3.14337,-1,0.119444
6793.89,3.13537,-1,0.112778
6817.89,3.12737,-1,0.106111
6841.9,3.11937,-1,0.0994444
6865.91,3.11136,-1,0.0927778
6889.91,3.10336,-1,0.0861111
6913.92,3.09536,-1,0.0794444
6937.93,3.08736,-1,0.0727778
6961.93,3.07936,-1,0.0661111
6985.94,3.07135,-1,0.0594444
7009.95,3.06335,-1,0.0527778
7033.95,3.05535,-1,0.0461111
7057.96,3.04735,-1,0.0394444
7081.97,3.03934,-1,0.0327778
7105.97,3.03134,-1,0.0261111
7129.98,3.02334,-1,0.0194444
7153.99,3.01534,-1,0.0127778
7177.99,3.00734,-1,0.00611111
7200.0,3.0,-1,0.0